File: PC2/IR-Raman/Raman/CDCl3.csv
ENLIGHTEN Version,3.2.36
Measurement ID,20260121-153022-722874-WP-01416
Serial Number,WP-01416
Model,WPX-532-R4-EXR-IC
Detector,S11850-1106
Label,CDCl3
Declared Match,
Declared Score,0
Scan Averaging,1
Boxcar,1
Technique,
Baseline Correction Algo,
ROI Pixel Start,80
ROI Pixel End,2046
CCD C4,2.7495e-13
Slit Width,25
Vignetted,True
Interpolated,False
Wavenumber Correction,0
Raman Intensity Corrected,False
Deconvolved,False
Region,
Laser Power mW,
Battery %,
Device ID,<DeviceID USB USB:0x24aa:0x1000:0:1>
FW Version,10.0.0.10
FPGA Version,035-001
Integration Time,1000
Timestamp,2026-01-21 15:30:22.7229
Note,
Temperature,9.99381
CCD C0,526.091
CCD C1,0.111475
CCD C2,4.83367e-06
CCD C3,-3.90229e-09
CCD Offset,0
CCD Gain,1.9
CCD Offset Odd,0
CCD Gain Odd,1.9
Laser Wavelength,532.1
Laser Enable,False
Laser Power %,100
Laser Temperature,0
Pixel Count,2048

Pixel,Wavelength,Wavenumber,Processed
80,535.04,103.19,1359.00
82,535.26,111.03,1273.67
84,535.49,118.85,1220.00
86,535.71,126.68,1210.00
88,535.94,134.50,1193.67
90,536.16,142.31,1171.67
92,536.38,150.12,1140.67
94,536.61,157.92,1138.00
96,536.83,165.71,1131.00
98,537.06,173.50,1117.00
100,537.28,181.29,1126.00
102,537.51,189.07,1149.67
104,537.73,196.84,1156.33
106,537.96,204.61,1192.00
108,538.18,212.37,1203.67
110,538.41,220.13,1294.67
112,538.63,227.88,1433.67
114,538.86,235.63,1878.67
116,539.08,243.37,2376.33
118,539.31,251.11,2707.33
120,539.53,258.84,2833.67
122,539.76,266.56,2070.00
124,539.98,274.28,1434.67
126,540.21,281.99,1250.33
128,540.43,289.70,1192.33
130,540.66,297.40,1175.33
132,540.88,305.10,1183.00
134,541.11,312.79,1182.33
136,541.33,320.48,1185.67
138,541.56,328.16,1231.33
140,541.78,335.84,1461.33
142,542.01,343.50,2063.00
144,542.23,351.17,2602.33
146,542.46,358.83,3009.00
148,542.68,366.48,2519.67
150,542.91,374.13,1495.33
152,543.13,381.77,1201.00
154,543.36,389.41,1182.00
156,543.58,397.04,1149.33
158,543.81,404.66,1140.00
160,544.03,412.28,1133.33
162,544.26,419.90,1155.67
164,544.49,427.51,1136.00
166,544.71,435.11,1116.33
168,544.94,442.71,1116.00
170,545.16,450.30,1115.00
172,545.39,457.89,1127.67
174,545.61,465.47,1152.33
176,545.84,473.05,1172.67
178,546.06,480.62,1148.33
180,546.29,488.18,1122.33
182,546.52,495.74,1131.67
184,546.74,503.30,1143.00
186,546.97,510.84,1109.33
188,547.19,518.39,1116.33
190,547.42,525.93,1115.00
192,547.65,533.46,1111.33
194,547.87,540.98,1136.67
196,548.10,548.50,1117.67
198,548.32,556.02,1143.00
200,548.55,563.53,1128.33
202,548.77,571.03,1093.00
204,549.00,578.53,1110.67
206,549.23,586.03,1123.33
208,549.45,593.52,1133.33
210,549.68,601.00,1123.33
212,549.90,608.48,1146.00
214,550.13,615.95,1198.00
216,550.36,623.41,1413.00
218,550.58,630.87,2159.00
220,550.81,638.33,3140.67
222,551.03,645.78,3616.67
224,551.26,653.22,2534.67
226,551.49,660.66,1396.67
228,551.71,668.09,1243.00
230,551.94,675.52,1233.67
232,552.17,682.94,1176.33
234,552.39,690.36,1172.33
236,552.62,697.77,1203.00
238,552.84,705.18,1352.67
240,553.07,712.58,1501.00
242,553.30,719.97,1668.33
244,553.52,727.36,1813.00
246,553.75,734.74,1803.00
248,553.98,742.12,1631.33
250,554.20,749.49,1414.33
252,554.43,756.86,1273.00
254,554.65,764.22,1197.67
256,554.88,771.58,1163.33
258,555.11,778.93,1138.00
260,555.33,786.27,1134.67
262,555.56,793.61,1102.33
264,555.79,800.95,1113.00
266,556.01,808.28,1109.33
268,556.24,815.60,1098.33
270,556.47,822.92,1094.33
272,556.69,830.23,1091.67
274,556.92,837.54,1102.00
276,557.15,844.84,1088.00
278,557.37,852.13,1114.00
280,557.60,859.42,1116.33
282,557.83,866.71,1129.33
284,558.05,873.99,1152.33
286,558.28,881.26,1199.00
288,558.51,888.53,1262.67
290,558.73,895.79,1333.33
292,558.96,903.05,1434.67
294,559.19,910.30,1343.33
296,559.41,917.55,1268.33
298,559.64,924.79,1193.67
300,559.87,932.02,1148.00
302,560.09,939.25,1137.00
304,560.32,946.48,1148.67
306,560.55,953.70,1152.33
308,560.77,960.91,1138.00
310,561.00,968.12,1098.00
312,561.23,975.32,1100.00
314,561.45,982.52,1094.33
316,561.68,989.71,1106.00
318,561.91,996.89,1102.33
320,562.13,1004.07,1101.67
322,562.36,1011.25,1094.67
324,562.59,1018.42,1079.00
326,562.81,1025.58,1094.33
328,563.04,1032.74,1101.67
330,563.27,1039.89,1085.67
332,563.49,1047.04,1077.33
334,563.72,1054.18,1084.33
336,563.95,1061.32,1079.33
338,564.17,1068.45,1103.33
340,564.40,1075.58,1106.33
342,564.63,1082.70,1094.33
344,564.86,1089.81,1097.00
346,565.08,1096.92,1097.33
348,565.31,1104.03,1085.33
350,565.54,1111.12,1101.00
352,565.76,1118.22,1096.67
354,565.99,1125.31,1111.33
356,566.22,1132.39,1122.00
358,566.44,1139.46,1086.33
360,566.67,1146.54,1088.33
362,566.90,1153.60,1091.67
364,567.12,1160.66,1096.67
366,567.35,1167.72,1091.67
368,567.58,1174.77,1110.00
370,567.81,1181.81,1093.67
372,568.03,1188.85,1092.33
374,568.26,1195.88,1090.33
376,568.49,1202.91,1081.00
378,568.71,1209.93,1087.33
380,568.94,1216.95,1102.00
382,569.17,1223.96,1088.67
384,569.40,1230.96,1086.00
386,569.62,1237.96,1081.67
388,569.85,1244.96,1105.00
390,570.08,1251.95,1104.67
392,570.30,1258.93,1106.00
394,570.53,1265.91,1102.67
396,570.76,1272.88,1074.67
398,570.98,1279.85,1079.67
400,571.21,1286.81,1070.00
402,571.44,1293.77,1078.33
404,571.67,1300.72,1076.00
406,571.89,1307.67,1106.33
408,572.12,1314.61,1077.67
410,572.35,1321.54,1098.67
412,572.57,1328.47,1097.67
414,572.80,1335.40,1081.33
416,573.03,1342.32,1084.33
418,573.26,1349.23,1096.00
420,573.48,1356.14,1100.33
422,573.71,1363.04,1079.00
424,573.94,1369.94,1085.33
426,574.16,1376.83,1094.67
428,574.39,1383.72,1092.67
430,574.62,1390.60,1082.67
432,574.85,1397.47,1082.00
434,575.07,1404.34,1080.33
436,575.30,1411.21,1086.67
438,575.53,1418.07,1084.00
440,575.75,1424.92,1104.33
442,575.98,1431.77,1094.33
444,576.21,1438.61,1122.00
446,576.44,1445.45,1134.00
448,576.66,1452.28,1152.67
450,576.89,1459.11,1157.67
452,577.12,1465.93,1140.00
454,577.34,1472.75,1136.33
456,577.57,1479.56,1127.33
458,577.80,1486.36,1113.33
460,578.02,1493.16,1100.33
462,578.25,1499.96,1088.00
464,578.48,1506.75,1105.00
466,578.71,1513.53,1092.67
468,578.93,1520.31,1101.33
470,579.16,1527.08,1089.33
472,579.39,1533.85,1094.33
474,579.61,1540.61,1102.67
476,579.84,1547.37,1086.67
478,580.07,1554.12,1084.00
480,580.30,1560.87,1089.00
482,580.52,1567.61,1099.67
484,580.75,1574.34,1085.67
486,580.98,1581.07,1083.67
488,581.20,1587.80,1112.33
490,581.43,1594.52,1128.67
492,581.66,1601.23,1108.00
494,581.89,1607.94,1105.67
496,582.11,1614.64,1096.33
498,582.34,1621.34,1117.67
500,582.57,1628.03,1130.00
502,582.79,1634.72,1144.67
504,583.02,1641.40,1160.00
506,583.25,1648.08,1128.67
508,583.47,1654.75,1119.67
510,583.70,1661.41,1119.00
512,583.93,1668.08,1099.33
514,584.16,1674.73,1110.00
516,584.38,1681.38,1120.67
518,584.61,1688.02,1108.33
520,584.84,1694.66,1093.00
522,585.06,1701.30,1090.00
524,585.29,1707.93,1086.33
526,585.52,1714.55,1081.00
528,585.74,1721.17,1088.00
530,585.97,1727.78,1069.67
532,586.20,1734.38,1085.33
534,586.43,1740.99,1121.67
536,586.65,1747.58,1116.67
538,586.88,1754.17,1101.00
540,587.11,1760.76,1096.67
542,587.33,1767.34,1086.00
544,587.56,1773.91,1108.33
546,587.79,1780.48,1107.67
548,588.01,1787.05,1113.33
550,588.24,1793.61,1128.33
552,588.47,1800.16,1126.00
554,588.69,1806.71,1116.33
556,588.92,1813.25,1108.67
558,589.15,1819.79,1123.33
560,589.37,1826.32,1101.33
562,589.60,1832.85,1085.33
564,589.83,1839.37,1093.00
566,590.06,1845.89,1087.33
568,590.28,1852.40,1102.00
570,590.51,1858.91,1108.67
572,590.74,1865.41,1101.67
574,590.96,1871.90,1113.67
576,591.19,1878.39,1106.00
578,591.42,1884.88,1086.33
580,591.64,1891.36,1077.67
582,591.87,1897.83,1078.67
584,592.10,1904.30,1083.67
586,592.32,1910.76,1109.33
588,592.55,1917.22,1104.33
590,592.78,1923.68,1110.00
592,593.00,1930.12,1116.67
594,593.23,1936.57,1091.00
596,593.46,1943.00,1069.67
598,593.68,1949.43,1092.33
600,593.91,1955.86,1092.33
602,594.14,1962.28,1177.67
604,594.36,1968.70,1198.00
606,594.59,1975.11,1082.33
608,594.82,1981.52,1099.67
610,595.04,1987.92,1085.33
612,595.27,1994.31,1091.00
614,595.49,2000.70,1103.67
616,595.72,2007.09,1082.33
618,595.95,2013.47,1075.33
620,596.17,2019.84,1079.00
622,596.40,2026.21,1086.00
624,596.63,2032.57,1082.33
626,596.85,2038.93,1084.33
628,597.08,2045.28,1106.67
630,597.31,2051.63,1096.67
632,597.53,2057.98,1083.33
634,597.76,2064.31,1105.00
636,597.99,2070.65,1093.33
638,598.21,2076.97,1086.67
640,598.44,2083.29,1101.33
642,598.66,2089.61,1099.33
644,598.89,2095.92,1104.67
646,599.12,2102.23,1096.33
648,599.34,2108.53,1104.00
650,599.57,2114.83,1110.33
652,599.80,2121.12,1099.33
654,600.02,2127.40,1097.33
656,600.25,2133.68,1111.33
658,600.47,2139.96,1119.33
660,600.70,2146.23,1093.00
662,600.93,2152.49,1083.67
664,601.15,2158.75,1079.00
666,601.38,2165.00,1106.67
668,601.60,2171.25,1117.33
670,601.83,2177.50,1091.00
672,602.06,2183.74,1095.33
674,602.28,2189.97,1101.33
676,602.51,2196.20,1111.33
678,602.74,2202.42,1118.00
680,602.96,2208.64,1137.67
682,603.19,2214.85,1148.00
684,603.41,2221.06,1171.33
686,603.64,2227.26,1229.00
688,603.86,2233.46,1445.00
690,604.09,2239.65,1972.00
692,604.32,2245.84,2642.00
694,604.54,2252.02,2669.67
696,604.77,2258.20,1915.67
698,604.99,2264.37,1433.33
700,605.22,2270.53,1281.00
702,605.45,2276.69,1204.33
704,605.67,2282.85,1170.00
706,605.90,2289.00,1145.33
708,606.12,2295.15,1132.00
710,606.35,2301.29,1119.67
712,606.57,2307.42,1108.67
714,606.80,2313.55,1117.67
716,607.03,2319.68,1116.00
718,607.25,2325.80,1112.33
720,607.48,2331.91,1118.00
722,607.70,2338.02,1117.33
724,607.93,2344.13,1105.67
726,608.15,2350.22,1112.00
728,608.38,2356.32,1098.67
730,608.60,2362.41,1106.67
732,608.83,2368.49,1095.67
734,609.05,2374.57,1119.00
736,609.28,2380.64,1135.33
738,609.51,2386.71,1087.00
740,609.73,2392.78,1094.67
742,609.96,2398.84,1113.00
744,610.18,2404.89,1132.33
746,610.41,2410.94,1147.33
748,610.63,2416.98,1162.67
750,610.86,2423.02,1189.00
752,611.08,2429.05,1181.00
754,611.31,2435.08,1184.33
756,611.53,2441.10,1159.67
758,611.76,2447.12,1140.67
760,611.98,2453.13,1141.67
762,612.21,2459.14,1131.67
764,612.43,2465.14,1101.33
766,612.66,2471.14,1137.33
768,612.88,2477.13,1091.67
770,613.11,2483.12,1095.67
772,613.33,2489.10,1105.00
774,613.56,2495.08,1107.00
776,613.78,2501.05,1148.33
778,614.01,2507.02,1102.33
780,614.23,2512.98,1105.67
782,614.46,2518.93,1124.00
784,614.68,2524.89,1112.00
786,614.91,2530.83,1095.00
788,615.13,2536.77,1113.00
790,615.36,2542.71,1108.67
792,615.58,2548.64,1106.33
794,615.81,2554.57,1110.67
796,616.03,2560.49,1092.33
798,616.25,2566.41,1108.33
800,616.48,2572.32,1088.00
802,616.70,2578.22,1108.67
804,616.93,2584.12,1103.67
806,617.15,2590.02,1106.67
808,617.38,2595.91,1099.33
810,617.60,2601.80,1086.00
812,617.83,2607.68,1077.33
814,618.05,2613.55,1095.67
816,618.27,2619.43,1106.33
818,618.50,2625.29,1115.33
820,618.72,2631.15,1088.67
822,618.95,2637.01,1078.00
824,619.17,2642.86,1097.00
826,619.40,2648.71,1115.67
828,619.62,2654.55,1122.00
830,619.84,2660.38,1089.33
832,620.07,2666.21,1097.33
834,620.29,2672.04,1099.33
836,620.52,2677.86,1103.67
838,620.74,2683.68,1102.33
840,620.96,2689.49,1113.33
842,621.19,2695.29,1110.33
844,621.41,2701.09,1122.33
846,621.64,2706.89,1089.33
848,621.86,2712.68,1086.00
850,622.08,2718.47,1096.67
852,622.31,2724.25,1102.33
854,622.53,2730.03,1101.67
856,622.76,2735.80,1095.67
858,622.98,2741.56,1091.33
860,623.20,2747.32,1108.33
862,623.43,2753.08,1087.00
864,623.65,2758.83,1087.33
866,623.87,2764.58,1094.67
868,624.10,2770.32,1106.67
870,624.32,2776.06,1096.67
872,624.54,2781.79,1122.00
874,624.77,2787.51,1126.67
876,624.99,2793.24,1112.67
878,625.21,2798.95,1107.00
880,625.44,2804.66,1088.67
882,625.66,2810.37,1079.67
884,625.88,2816.07,1110.67
886,626.11,2821.77,1099.00
888,626.33,2827.46,1085.67
890,626.55,2833.15,1081.00
892,626.78,2838.83,1084.33
894,627.00,2844.51,1086.67
896,627.22,2850.18,1101.00
898,627.45,2855.85,1095.67
900,627.67,2861.51,1086.33
902,627.89,2867.17,1095.00
904,628.12,2872.82,1114.00
906,628.34,2878.47,1097.67
908,628.56,2884.11,1090.00
910,628.78,2889.75,1115.33
912,629.01,2895.38,1121.00
914,629.23,2901.01,1122.33
916,629.45,2906.63,1088.00
918,629.68,2912.25,1086.67
920,629.90,2917.87,1091.00
922,630.12,2923.48,1098.67
924,630.34,2929.08,1096.00
926,630.57,2934.68,1084.00
928,630.79,2940.27,1099.33
930,631.01,2945.86,1105.00
932,631.23,2951.45,1099.33
934,631.46,2957.03,1114.00
936,631.68,2962.60,1116.67
938,631.90,2968.17,1111.33
940,632.12,2973.73,1085.00
942,632.34,2979.29,1094.33
944,632.57,2984.85,1100.00
946,632.79,2990.40,1091.67
948,633.01,2995.95,1081.67
950,633.23,3001.49,1096.00
952,633.46,3007.02,1091.00
954,633.68,3012.55,1089.33
956,633.90,3018.08,1089.33
958,634.12,3023.60,1111.33
960,634.34,3029.12,1107.67
962,634.56,3034.63,1118.33
964,634.79,3040.14,1118.33
966,635.01,3045.64,1095.67
968,635.23,3051.13,1104.00
970,635.45,3056.63,1081.67
972,635.67,3062.11,1083.67
974,635.90,3067.60,1124.67
976,636.12,3073.08,1109.00
978,636.34,3078.55,1095.67
980,636.56,3084.02,1087.33
982,636.78,3089.48,1098.67
984,637.00,3094.94,1092.33
986,637.22,3100.39,1111.00
988,637.45,3105.84,1107.00
990,637.67,3111.29,1120.00
992,637.89,3116.73,1105.67
994,638.11,3122.16,1119.00
996,638.33,3127.59,1108.67
998,638.55,3133.02,1094.00
1000,638.77,3138.44,1094.33
1002,638.99,3143.85,1095.00
1004,639.21,3149.26,1094.67
1006,639.44,3154.67,1124.67
1008,639.66,3160.07,1124.67
1010,639.88,3165.47,1105.67
1012,640.10,3170.86,1120.67
1014,640.32,3176.25,1112.00
1016,640.54,3181.63,1119.00
1018,640.76,3187.00,1117.67
1020,640.98,3192.38,1128.00
1022,641.20,3197.75,1091.33
1024,641.42,3203.11,1088.67
1026,641.64,3208.47,1094.67
1028,641.86,3213.82,1116.00
1030,642.08,3219.17,1102.33
1032,642.30,3224.51,1091.67
1034,642.52,3229.85,1101.33
1036,642.74,3235.19,1114.67
1038,642.97,3240.52,1099.33
1040,643.19,3245.84,1115.00
1042,643.41,3251.17,1099.00
1044,643.63,3256.48,1111.33
1046,643.85,3261.79,1110.33
1048,644.07,3267.10,1130.67
1050,644.29,3272.40,1090.00
1052,644.51,3277.70,1088.00
1054,644.73,3282.99,1104.67
1056,644.95,3288.28,1111.00
1058,645.17,3293.56,1092.00
1060,645.39,3298.84,1085.33
1062,645.61,3304.11,1087.00
1064,645.82,3309.38,1117.67
1066,646.04,3314.65,1090.00
1068,646.26,3319.91,1077.33
1070,646.48,3325.16,1100.67
1072,646.70,3330.41,1101.00
1074,646.92,3335.66,1157.67
1076,647.14,3340.90,1114.00
1078,647.36,3346.13,1105.67
1080,647.58,3351.37,1101.33
1082,647.80,3356.59,1089.00
1084,648.02,3361.82,1099.00
1086,648.24,3367.03,1093.67
1088,648.46,3372.25,1110.33
1090,648.68,3377.45,1081.33
1092,648.90,3382.66,1094.33
1094,649.11,3387.86,1095.00
1096,649.33,3393.05,1090.67
1098,649.55,3398.24,1107.67
1100,649.77,3403.43,1087.00
1102,649.99,3408.61,1074.33
1104,650.21,3413.78,1098.67
1106,650.43,3418.95,1092.33
1108,650.65,3424.12,1101.00
1110,650.86,3429.28,1084.33
1112,651.08,3434.44,1095.00
1114,651.30,3439.59,1089.33
1116,651.52,3444.74,1074.67
1118,651.74,3449.88,1066.33
1120,651.96,3455.02,1083.33
1122,652.18,3460.16,1089.00
1124,652.39,3465.29,1104.33
1126,652.61,3470.41,1089.00
1128,652.83,3475.53,1109.67
1130,653.05,3480.65,1107.00
1132,653.27,3485.76,1088.33
1134,653.48,3490.86,1081.00
1136,653.70,3495.97,1093.67
1138,653.92,3501.06,1100.67
1140,654.14,3506.16,1102.67
1142,654.36,3511.24,1105.00
1144,654.57,3516.33,1096.00
1146,654.79,3521.41,1099.33
1148,655.01,3526.48,1102.00
1150,655.23,3531.55,1100.00
1152,655.44,3536.62,1109.33
1154,655.66,3541.68,1096.33
1156,655.88,3546.73,1097.00
1158,656.10,3551.79,1083.67
1160,656.31,3556.83,1097.33
1162,656.53,3561.88,1104.00
1164,656.75,3566.91,1093.00
1166,656.96,3571.95,1097.33
1168,657.18,3576.98,1101.00
1170,657.40,3582.00,1106.00
1172,657.62,3587.02,1106.67
1174,657.83,3592.04,1102.33
1176,658.05,3597.05,1095.67
1178,658.27,3602.05,1085.00
1180,658.48,3607.06,1088.67
1182,658.70,3612.05,1094.33
1184,658.92,3617.05,1112.00
1186,659.13,3622.03,1102.67
1188,659.35,3627.02,1118.33
1190,659.57,3632.00,1104.33
1192,659.78,3636.97,1091.33
1194,660.00,3641.94,1098.33
1196,660.22,3646.91,1109.00
1198,660.43,3651.87,1113.67
1200,660.65,3656.82,1168.00
1202,660.87,3661.78,1164.67
1204,661.08,3666.72,1086.33
1206,661.30,3671.67,1096.33
1208,661.51,3676.61,1096.00
1210,661.73,3681.54,1093.33
1212,661.95,3686.47,1088.00
1214,662.16,3691.40,1069.67
1216,662.38,3696.32,1081.00
1218,662.59,3701.23,1084.33
1220,662.81,3706.14,1088.00
1222,663.02,3711.05,1097.00
1224,663.24,3715.95,1078.00
1226,663.46,3720.85,1113.33
1228,663.67,3725.75,1098.67
1230,663.89,3730.64,1085.67
1232,664.10,3735.52,1092.00
1234,664.32,3740.40,1095.00
1236,664.53,3745.28,1108.67
1238,664.75,3750.15,1090.67
1240,664.96,3755.02,1083.00
1242,665.18,3759.88,1067.00
1244,665.39,3764.74,1095.00
1246,665.61,3769.59,1085.00
1248,665.82,3774.44,1101.33
1250,666.04,3779.29,1115.67
1252,666.25,3784.13,1095.00
1254,666.47,3788.96,1095.67
1256,666.68,3793.79,1087.00
1258,666.90,3798.62,1095.33
1260,667.11,3803.45,1087.33
1262,667.33,3808.26,1106.33
1264,667.54,3813.08,1075.67
1266,667.75,3817.89,1084.67
1268,667.97,3822.69,1076.00
1270,668.18,3827.49,1087.33
1272,668.40,3832.29,1080.33
1274,668.61,3837.08,1082.67
1276,668.83,3841.87,1095.00
1278,669.04,3846.65,1093.33
1280,669.25,3851.43,1142.67
1282,669.47,3856.21,1151.33
1284,669.68,3860.98,1089.67
1286,669.89,3865.74,1082.00
1288,670.11,3870.50,1089.67
1290,670.32,3875.26,1093.00
1292,670.54,3880.01,1099.33
1294,670.75,3884.76,1079.00
1296,670.96,3889.51,1082.33
1298,671.18,3894.25,1089.33
1300,671.39,3898.98,1083.67
1302,671.60,3903.71,1073.33
1304,671.82,3908.44,1080.67
1306,672.03,3913.16,1090.33
1308,672.24,3917.88,1101.00
1310,672.46,3922.59,1101.00
1312,672.67,3927.30,1075.67
1314,672.88,3932.01,1091.67
1316,673.09,3936.71,1102.00
1318,673.31,3941.40,1086.67
1320,673.52,3946.09,1086.67
1322,673.73,3950.78,1090.00
1324,673.95,3955.47,1093.00
1326,674.16,3960.14,1074.67
1328,674.37,3964.82,1076.67
1330,674.58,3969.49,1112.00
1332,674.80,3974.15,1106.33
1334,675.01,3978.82,1097.00
1336,675.22,3983.47,1097.67
1338,675.43,3988.13,1090.33
1340,675.64,3992.77,1082.67
1342,675.86,3997.42,1077.67
1344,676.07,4002.06,1104.67
1346,676.28,4006.70,1087.00
1348,676.49,4011.33,1077.67
1350,676.70,4015.95,1100.33
1352,676.92,4020.58,1113.67
1354,677.13,4025.20,1105.67
1356,677.34,4029.81,1090.67
1358,677.55,4034.42,1083.33
1360,677.76,4039.03,1098.00
1362,677.97,4043.63,1075.33
1364,678.19,4048.22,1078.33
1366,678.40,4052.82,1074.67
1368,678.61,4057.41,1095.33
1370,678.82,4061.99,1076.33
1372,679.03,4066.57,1082.00
1374,679.24,4071.15,1083.67
1376,679.45,4075.72,1075.33
1378,679.66,4080.29,1087.00
1380,679.87,4084.85,1092.33
1382,680.08,4089.41,1107.33
1384,680.30,4093.96,1093.00
1386,680.51,4098.51,1085.00
1388,680.72,4103.06,1103.33
1390,680.93,4107.60,1079.67
1392,681.14,4112.14,1078.67
1394,681.35,4116.67,1094.33
1396,681.56,4121.20,1107.33
1398,681.77,4125.73,1091.00
1400,681.98,4130.25,1083.00
1402,682.19,4134.76,1103.00
1404,682.40,4139.28,1138.00
1406,682.61,4143.78,1143.67
1408,682.82,4148.29,1106.67
1410,683.03,4152.79,1093.67
1412,683.24,4157.28,1107.67
1414,683.45,4161.78,1117.67
1416,683.66,4166.26,1090.67
1418,683.87,4170.75,1087.33
1420,684.08,4175.22,1104.33
1422,684.29,4179.70,1097.33
1424,684.50,4184.17,1091.67
1426,684.71,4188.64,1089.67
1428,684.91,4193.10,1108.00
1430,685.12,4197.56,1100.00
1432,685.33,4202.01,1089.33
1434,685.54,4206.46,1077.33
1436,685.75,4210.90,1086.67
1438,685.96,4215.35,1070.67
1440,686.17,4219.78,1077.67
1442,686.38,4224.22,1089.67
1444,686.59,4228.64,1077.67
1446,686.79,4233.07,1086.67
1448,687.00,4237.49,1089.67
1450,687.21,4241.90,1078.33
1452,687.42,4246.32,1087.67
1454,687.63,4250.73,1109.33
1456,687.84,4255.13,1085.33
1458,688.05,4259.53,1084.33
1460,688.25,4263.92,1090.00
1462,688.46,4268.32,1096.67
1464,688.67,4272.70,1088.00
1466,688.88,4277.09,1081.67
1468,689.09,4281.47,1083.00
1470,689.29,4285.84,1072.00
1472,689.50,4290.21,1096.00
1474,689.71,4294.58,1094.33
1476,689.92,4298.94,1122.33
1478,690.12,4303.30,1129.33
1480,690.33,4307.65,1093.33
1482,690.54,4312.00,1084.33
1484,690.75,4316.35,1086.00
1486,690.95,4320.69,1069.00
1488,691.16,4325.03,1088.33
1490,691.37,4329.36,1069.00
1492,691.57,4333.69,1076.67
1494,691.78,4338.02,1091.33
1496,691.99,4342.34,1087.33
1498,692.19,4346.66,1078.00
1500,692.40,4350.97,1078.00
1502,692.61,4355.28,1087.00
1504,692.81,4359.59,1074.00
1506,693.02,4363.89,1076.00
1508,693.23,4368.18,1082.00
1510,693.43,4372.48,1096.67
1512,693.64,4376.77,1102.67
1514,693.85,4381.05,1106.00
1516,694.05,4385.33,1093.33
1518,694.26,4389.61,1063.33
1520,694.46,4393.88,1084.00
1522,694.67,4398.15,1065.33
1524,694.88,4402.41,1085.67
1526,695.08,4406.68,1107.00
1528,695.29,4410.93,1078.00
1530,695.49,4415.18,1079.67
1532,695.70,4419.43,1086.33
1534,695.90,4423.68,1075.00
1536,696.11,4427.92,1071.00
1538,696.32,4432.15,1089.67
1540,696.52,4436.39,1091.00
1542,696.73,4440.61,1071.33
1544,696.93,4444.84,1078.67
1546,697.14,4449.06,1087.67
1548,697.34,4453.28,1085.33
1550,697.55,4457.49,1125.33
1552,697.75,4461.70,1112.00
1554,697.96,4465.90,1101.67
1556,698.16,4470.10,1093.33
1558,698.36,4474.30,1082.33
1560,698.57,4478.49,1071.00
1562,698.77,4482.68,1066.33
1564,698.98,4486.86,1060.67
1566,699.18,4491.04,1073.00
1568,699.39,4495.22,1094.33
1570,699.59,4499.39,1112.67
1572,699.79,4503.56,1103.67
1574,700.00,4507.72,1090.00
1576,700.20,4511.88,1099.67
1578,700.41,4516.04,1077.33
1580,700.61,4520.19,1086.00
1582,700.81,4524.34,1083.00
1584,701.02,4528.49,1089.67
1586,701.22,4532.63,1075.67
1588,701.42,4536.76,1077.67
1590,701.63,4540.89,1093.00
1592,701.83,4545.02,1105.00
1594,702.03,4549.15,1109.33
1596,702.24,4553.27,1098.00
1598,702.44,4557.39,1069.67
1600,702.64,4561.50,1078.00
1602,702.85,4565.61,1101.33
1604,703.05,4569.71,1090.00
1606,703.25,4573.81,1085.00
1608,703.46,4577.91,1087.67
1610,703.66,4582.00,1095.00
1612,703.86,4586.09,1107.67
1614,704.06,4590.18,1090.67
1616,704.27,4594.26,1082.33
1618,704.47,4598.34,1086.00
1620,704.67,4602.41,1089.33
1622,704.87,4606.48,1101.67
1624,705.07,4610.55,1091.00
1626,705.28,4614.61,1100.67
1628,705.48,4618.67,1074.00
1630,705.68,4622.72,1080.33
1632,705.88,4626.77,1106.33
1634,706.08,4630.82,1120.00
1636,706.28,4634.86,1113.67
1638,706.49,4638.90,1114.00
1640,706.69,4642.93,1099.33
1642,706.89,4646.96,1124.33
1644,707.09,4650.99,1108.00
1646,707.29,4655.01,1128.00
1648,707.49,4659.03,1114.00
1650,707.69,4663.05,1080.33
1652,707.89,4667.06,1082.67
1654,708.10,4671.06,1093.33
1656,708.30,4675.07,1146.67
1658,708.50,4679.07,1134.00
1660,708.70,4683.06,1118.33
1662,708.90,4687.05,1127.67
1664,709.10,4691.04,1103.00
1666,709.30,4695.03,1120.67
1668,709.50,4699.01,1112.00
1670,709.70,4702.98,1095.00
1672,709.90,4706.96,1085.00
1674,710.10,4710.92,1090.00
1676,710.30,4714.89,1096.67
1678,710.50,4718.85,1095.00
1680,710.70,4722.81,1098.33
1682,710.90,4726.76,1111.33
1684,711.10,4730.71,1115.00
1686,711.30,4734.66,1098.67
1688,711.50,4738.60,1093.67
1690,711.70,4742.54,1116.33
1692,711.90,4746.47,1111.00
1694,712.10,4750.40,1092.33
1696,712.29,4754.33,1094.67
1698,712.49,4758.25,1081.67
1700,712.69,4762.17,1083.33
1702,712.89,4766.08,1077.00
1704,713.09,4770.00,1074.33
1706,713.29,4773.90,1097.00
1708,713.49,4777.81,1107.33
1710,713.69,4781.71,1089.00
1712,713.89,4785.60,1094.67
1714,714.08,4789.50,1091.67
1716,714.28,4793.38,1097.67
1718,714.48,4797.27,1101.67
1720,714.68,4801.15,1100.33
1722,714.88,4805.03,1096.67
1724,715.07,4808.90,1090.33
1726,715.27,4812.77,1084.67
1728,715.47,4816.64,1077.33
1730,715.67,4820.50,1087.67
1732,715.87,4824.36,1102.33
1734,716.06,4828.21,1085.33
1736,716.26,4832.06,1084.00
1738,716.46,4835.91,1074.00
1740,716.66,4839.75,1084.67
1742,716.85,4843.59,1088.33
1744,717.05,4847.43,1114.33
1746,717.25,4851.26,1115.67
1748,717.44,4855.09,1102.67
1750,717.64,4858.91,1101.00
1752,717.84,4862.73,1080.67
1754,718.03,4866.55,1088.33
1756,718.23,4870.36,1088.00
1758,718.43,4874.17,1091.00
1760,718.62,4877.98,1087.33
1762,718.82,4881.78,1111.33
1764,719.02,4885.58,1093.67
1766,719.21,4889.37,1077.00
1768,719.41,4893.17,1079.00
1770,719.61,4896.95,1088.67
1772,719.80,4900.74,1126.33
1774,720.00,4904.52,1114.00
1776,720.19,4908.29,1085.00
1778,720.39,4912.06,1094.33
1780,720.58,4915.83,1134.67
1782,720.78,4919.60,1133.33
1784,720.98,4923.36,1117.33
1786,721.17,4927.12,1080.33
1788,721.37,4930.87,1076.33
1790,721.56,4934.62,1098.33
1792,721.76,4938.37,1114.67
1794,721.95,4942.11,1083.00
1796,722.15,4945.85,1097.33
1798,722.34,4949.58,1099.33
1800,722.54,4953.32,1096.33
1802,722.73,4957.04,1096.33
1804,722.93,4960.77,1097.33
1806,723.12,4964.49,1076.00
1808,723.31,4968.21,1070.00
1810,723.51,4971.92,1062.00
1812,723.70,4975.63,1076.67
1814,723.90,4979.34,1083.00
1816,724.09,4983.04,1089.33
1818,724.28,4986.74,1074.00
1820,724.48,4990.43,1102.67
1822,724.67,4994.12,1105.33
1824,724.87,4997.81,1106.33
1826,725.06,5001.49,1098.00
1828,725.25,5005.17,1087.33
1830,725.45,5008.85,1077.33
1832,725.64,5012.52,1088.67
1834,725.83,5016.19,1094.33
1836,726.03,5019.86,1112.00
1838,726.22,5023.52,1116.00
1840,726.41,5027.18,1090.00
1842,726.61,5030.84,1108.33
1844,726.80,5034.49,1086.67
1846,726.99,5038.14,1077.33
1848,727.18,5041.78,1090.67
1850,727.38,5045.42,1084.00
1852,727.57,5049.06,1090.33
1854,727.76,5052.69,1081.00
1856,727.95,5056.32,1079.00
1858,728.15,5059.95,1084.67
1860,728.34,5063.57,1082.33
1862,728.53,5067.19,1085.33
1864,728.72,5070.80,1100.33
1866,728.91,5074.41,1089.67
1868,729.11,5078.02,1124.33
1870,729.30,5081.63,1130.00
1872,729.49,5085.23,1081.00
1874,729.68,5088.82,1098.00
1876,729.87,5092.42,1089.00
1878,730.06,5096.01,1084.67
1880,730.25,5099.59,1098.67
1882,730.45,5103.18,1105.67
1884,730.64,5106.76,1103.33
1886,730.83,5110.33,1112.33
1888,731.02,5113.90,1099.33
1890,731.21,5117.47,1098.33
1892,731.40,5121.04,1111.33
1894,731.59,5124.60,1098.67
1896,731.78,5128.16,1086.67
1898,731.97,5131.71,1085.00
1900,732.16,5135.26,1091.00
1902,732.35,5138.81,1103.00
1904,732.54,5142.35,1103.67
1906,732.73,5145.89,1107.67
1908,732.92,5149.43,1099.33
1910,733.11,5152.96,1098.67
1912,733.30,5156.49,1109.33
1914,733.49,5160.02,1104.67
1916,733.68,5163.54,1103.33
1918,733.87,5167.06,1096.33
1920,734.06,5170.58,1106.33
1922,734.25,5174.09,1092.33
1924,734.44,5177.60,1079.33
1926,734.63,5181.10,1093.00
1928,734.82,5184.60,1153.67
1930,735.00,5188.10,1136.67
1932,735.19,5191.59,1113.00
1934,735.38,5195.09,1089.33
1936,735.57,5198.57,1092.00
1938,735.76,5202.06,1098.33
1940,735.95,5205.54,1085.33
1942,736.14,5209.01,1106.33
1944,736.32,5212.49,1112.00
1946,736.51,5215.96,1119.67
1948,736.70,5219.42,1096.00
1950,736.89,5222.89,1132.33
1952,737.08,5226.34,1117.33
1954,737.26,5229.80,1117.33
1956,737.45,5233.25,1119.67
1958,737.64,5236.70,1128.33
1960,737.83,5240.15,1122.67
1962,738.01,5243.59,1118.33
1964,738.20,5247.03,1115.00
1966,738.39,5250.46,1109.67
1968,738.58,5253.89,1110.00
1970,738.76,5257.32,1092.33
1972,738.95,5260.75,1100.67
1974,739.14,5264.17,1114.00
1976,739.32,5267.58,1111.00
1978,739.51,5271.00,1115.33
1980,739.70,5274.41,1125.67
1982,739.88,5277.82,1107.00
1984,740.07,5281.22,1105.00
1986,740.26,5284.62,1095.67
1988,740.44,5288.02,1100.00
1990,740.63,5291.41,1110.00
1992,740.81,5294.80,1105.00
1994,741.00,5298.19,1137.33
1996,741.19,5301.57,1128.00
1998,741.37,5304.95,1110.67
2000,741.56,5308.32,1103.67
2002,741.74,5311.70,1110.33
2004,741.93,5315.07,1122.00
2006,742.11,5318.43,1109.33
2008,742.30,5321.79,1107.67
2010,742.48,5325.15,1118.00
2012,742.67,5328.51,1104.33
2014,742.85,5331.86,1103.00
2016,743.04,5335.21,1097.00
2018,743.22,5338.56,1097.67
2020,743.41,5341.90,1092.67
2022,743.59,5345.24,1102.33
2024,743.78,5348.57,1110.67
2026,743.96,5351.90,1104.33
2028,744.15,5355.23,1091.00
2030,744.33,5358.56,1075.33
2032,744.51,5361.88,1089.33
2034,744.70,5365.20,1083.00
2036,744.88,5368.51,1072.33
2038,745.07,5371.82,1074.00
2040,745.25,5375.13,1069.67
2042,745.43,5378.43,1051.33
2044,745.62,5381.74,1045.00
2046,745.80,5385.03,1053.00