File: PC2/IR-Raman/Raman/CHCl3.csv
ENLIGHTEN Version,3.2.36
Measurement ID,20260121-152926-257183-WP-01416
Serial Number,WP-01416
Model,WPX-532-R4-EXR-IC
Detector,S11850-1106
Label,CHCl3
Declared Match,
Declared Score,0
Scan Averaging,1
Boxcar,1
Technique,
Baseline Correction Algo,
ROI Pixel Start,80
ROI Pixel End,2046
CCD C4,2.7495e-13
Slit Width,25
Vignetted,True
Interpolated,False
Wavenumber Correction,0
Raman Intensity Corrected,False
Deconvolved,False
Region,
Laser Power mW,
Battery %,
Device ID,<DeviceID USB USB:0x24aa:0x1000:0:1>
FW Version,10.0.0.10
FPGA Version,035-001
Integration Time,1000
Timestamp,2026-01-21 15:29:26.2572
Note,
Temperature,10.0109
CCD C0,526.091
CCD C1,0.111475
CCD C2,4.83367e-06
CCD C3,-3.90229e-09
CCD Offset,0
CCD Gain,1.9
CCD Offset Odd,0
CCD Gain Odd,1.9
Laser Wavelength,532.1
Laser Enable,False
Laser Power %,100
Laser Temperature,0
Pixel Count,2048

Pixel,Wavelength,Wavenumber,Processed
80,535.04,103.19,1372.00
82,535.26,111.03,1285.00
84,535.49,118.85,1225.33
86,535.71,126.68,1216.33
88,535.94,134.50,1181.67
90,536.16,142.31,1174.67
92,536.38,150.12,1136.00
94,536.61,157.92,1142.00
96,536.83,165.71,1128.00
98,537.06,173.50,1114.00
100,537.28,181.29,1129.67
102,537.51,189.07,1157.00
104,537.73,196.84,1160.00
106,537.96,204.61,1199.33
108,538.18,212.37,1202.67
110,538.41,220.13,1284.67
112,538.63,227.88,1417.00
114,538.86,235.63,1840.33
116,539.08,243.37,2347.67
118,539.31,251.11,2719.33
120,539.53,258.84,2927.00
122,539.76,266.56,2224.00
124,539.98,274.28,1476.67
126,540.21,281.99,1255.67
128,540.43,289.70,1194.33
130,540.66,297.40,1188.67
132,540.88,305.10,1192.33
134,541.11,312.79,1203.00
136,541.33,320.48,1191.00
138,541.56,328.16,1216.33
140,541.78,335.84,1360.00
142,542.01,343.50,1888.67
144,542.23,351.17,2549.33
146,542.46,358.83,3029.33
148,542.68,366.48,2902.33
150,542.91,374.13,1772.33
152,543.13,381.77,1248.67
154,543.36,389.41,1196.67
156,543.58,397.04,1161.33
158,543.81,404.66,1156.33
160,544.03,412.28,1153.00
162,544.26,419.90,1175.00
164,544.49,427.51,1149.33
166,544.71,435.11,1135.33
168,544.94,442.71,1127.33
170,545.16,450.30,1131.00
172,545.39,457.89,1163.00
174,545.61,465.47,1183.00
176,545.84,473.05,1191.33
178,546.06,480.62,1178.00
180,546.29,488.18,1155.00
182,546.52,495.74,1139.33
184,546.74,503.30,1150.00
186,546.97,510.84,1127.00
188,547.19,518.39,1134.67
190,547.42,525.93,1124.00
192,547.65,533.46,1108.67
194,547.87,540.98,1138.00
196,548.10,548.50,1121.00
198,548.32,556.02,1142.33
200,548.55,563.53,1134.00
202,548.77,571.03,1107.33
204,549.00,578.53,1122.67
206,549.23,586.03,1131.33
208,549.45,593.52,1122.00
210,549.68,601.00,1108.67
212,549.90,608.48,1124.00
214,550.13,615.95,1141.67
216,550.36,623.41,1162.67
218,550.58,630.87,1190.67
220,550.81,638.33,1225.33
222,551.03,645.78,1603.00
224,551.26,653.22,2568.00
226,551.49,660.66,3507.00
228,551.71,668.09,3318.33
230,551.94,675.52,1829.00
232,552.17,682.94,1229.00
234,552.39,690.36,1152.00
236,552.62,697.77,1137.33
238,552.84,705.18,1210.67
240,553.07,712.58,1225.33
242,553.30,719.97,1252.00
244,553.52,727.36,1334.33
246,553.75,734.74,1475.33
248,553.98,742.12,1657.33
250,554.20,749.49,1785.33
252,554.43,756.86,1811.33
254,554.65,764.22,1711.67
256,554.88,771.58,1546.33
258,555.11,778.93,1387.33
260,555.33,786.27,1271.33
262,555.56,793.61,1176.67
264,555.79,800.95,1165.33
266,556.01,808.28,1136.67
268,556.24,815.60,1119.00
270,556.47,822.92,1097.00
272,556.69,830.23,1085.00
274,556.92,837.54,1100.67
276,557.15,844.84,1098.00
278,557.37,852.13,1110.00
280,557.60,859.42,1089.33
282,557.83,866.71,1094.67
284,558.05,873.99,1096.33
286,558.28,881.26,1100.67
288,558.51,888.53,1099.33
290,558.73,895.79,1089.67
292,558.96,903.05,1145.67
294,559.19,910.30,1092.33
296,559.41,917.55,1107.33
298,559.64,924.79,1095.00
300,559.87,932.02,1089.67
302,560.09,939.25,1095.00
304,560.32,946.48,1123.33
306,560.55,953.70,1139.00
308,560.77,960.91,1132.67
310,561.00,968.12,1091.00
312,561.23,975.32,1086.67
314,561.45,982.52,1089.33
316,561.68,989.71,1095.00
318,561.91,996.89,1101.00
320,562.13,1004.07,1098.00
322,562.36,1011.25,1091.67
324,562.59,1018.42,1079.67
326,562.81,1025.58,1103.33
328,563.04,1032.74,1110.67
330,563.27,1039.89,1095.33
332,563.49,1047.04,1082.33
334,563.72,1054.18,1086.00
336,563.95,1061.32,1079.00
338,564.17,1068.45,1110.00
340,564.40,1075.58,1114.67
342,564.63,1082.70,1092.67
344,564.86,1089.81,1107.00
346,565.08,1096.92,1098.33
348,565.31,1104.03,1102.00
350,565.54,1111.12,1114.67
352,565.76,1118.22,1111.67
354,565.99,1125.31,1129.33
356,566.22,1132.39,1131.00
358,566.44,1139.46,1100.33
360,566.67,1146.54,1102.33
362,566.90,1153.60,1106.33
364,567.12,1160.66,1117.67
366,567.35,1167.72,1120.00
368,567.58,1174.77,1127.67
370,567.81,1181.81,1138.33
372,568.03,1188.85,1160.67
374,568.26,1195.88,1228.33
376,568.49,1202.91,1328.33
378,568.71,1209.93,1411.33
380,568.94,1216.95,1398.00
382,569.17,1223.96,1257.33
384,569.40,1230.96,1172.00
386,569.62,1237.96,1134.67
388,569.85,1244.96,1145.33
390,570.08,1251.95,1145.67
392,570.30,1258.93,1127.67
394,570.53,1265.91,1120.33
396,570.76,1272.88,1095.67
398,570.98,1279.85,1090.00
400,571.21,1286.81,1079.67
402,571.44,1293.77,1084.33
404,571.67,1300.72,1086.33
406,571.89,1307.67,1110.00
408,572.12,1314.61,1078.33
410,572.35,1321.54,1109.00
412,572.57,1328.47,1109.00
414,572.80,1335.40,1090.00
416,573.03,1342.32,1078.67
418,573.26,1349.23,1096.00
420,573.48,1356.14,1105.67
422,573.71,1363.04,1068.67
424,573.94,1369.94,1084.67
426,574.16,1376.83,1089.67
428,574.39,1383.72,1097.00
430,574.62,1390.60,1088.00
432,574.85,1397.47,1076.00
434,575.07,1404.34,1081.67
436,575.30,1411.21,1083.33
438,575.53,1418.07,1086.00
440,575.75,1424.92,1096.67
442,575.98,1431.77,1079.00
444,576.21,1438.61,1095.33
446,576.44,1445.45,1102.33
448,576.66,1452.28,1121.67
450,576.89,1459.11,1144.33
452,577.12,1465.93,1131.00
454,577.34,1472.75,1146.67
456,577.57,1479.56,1156.33
458,577.80,1486.36,1165.67
460,578.02,1493.16,1157.00
462,578.25,1499.96,1157.67
464,578.48,1506.75,1161.33
466,578.71,1513.53,1154.33
468,578.93,1520.31,1156.00
470,579.16,1527.08,1131.33
472,579.39,1533.85,1118.33
474,579.61,1540.61,1125.00
476,579.84,1547.37,1114.67
478,580.07,1554.12,1105.33
480,580.30,1560.87,1109.67
482,580.52,1567.61,1115.33
484,580.75,1574.34,1097.67
486,580.98,1581.07,1095.00
488,581.20,1587.80,1116.33
490,581.43,1594.52,1131.00
492,581.66,1601.23,1114.00
494,581.89,1607.94,1103.00
496,582.11,1614.64,1091.33
498,582.34,1621.34,1095.00
500,582.57,1628.03,1099.33
502,582.79,1634.72,1114.67
504,583.02,1641.40,1139.33
506,583.25,1648.08,1109.67
508,583.47,1654.75,1110.00
510,583.70,1661.41,1131.67
512,583.93,1668.08,1107.67
514,584.16,1674.73,1120.67
516,584.38,1681.38,1124.00
518,584.61,1688.02,1118.33
520,584.84,1694.66,1094.33
522,585.06,1701.30,1092.67
524,585.29,1707.93,1089.33
526,585.52,1714.55,1083.67
528,585.74,1721.17,1091.67
530,585.97,1727.78,1074.67
532,586.20,1734.38,1084.67
534,586.43,1740.99,1121.67
536,586.65,1747.58,1122.00
538,586.88,1754.17,1107.67
540,587.11,1760.76,1100.00
542,587.33,1767.34,1083.00
544,587.56,1773.91,1099.33
546,587.79,1780.48,1089.67
548,588.01,1787.05,1087.33
550,588.24,1793.61,1102.67
552,588.47,1800.16,1103.67
554,588.69,1806.71,1102.33
556,588.92,1813.25,1097.33
558,589.15,1819.79,1107.67
560,589.37,1826.32,1091.67
562,589.60,1832.85,1082.33
564,589.83,1839.37,1095.00
566,590.06,1845.89,1101.67
568,590.28,1852.40,1108.33
570,590.51,1858.91,1105.33
572,590.74,1865.41,1098.67
574,590.96,1871.90,1108.67
576,591.19,1878.39,1104.33
578,591.42,1884.88,1100.33
580,591.64,1891.36,1096.00
582,591.87,1897.83,1077.33
584,592.10,1904.30,1091.67
586,592.32,1910.76,1115.67
588,592.55,1917.22,1110.33
590,592.78,1923.68,1106.33
592,593.00,1930.12,1114.00
594,593.23,1936.57,1106.33
596,593.46,1943.00,1078.00
598,593.68,1949.43,1112.00
600,593.91,1955.86,1118.00
602,594.14,1962.28,1202.67
604,594.36,1968.70,1206.33
606,594.59,1975.11,1090.00
608,594.82,1981.52,1106.33
610,595.04,1987.92,1093.00
612,595.27,1994.31,1095.33
614,595.49,2000.70,1108.00
616,595.72,2007.09,1086.33
618,595.95,2013.47,1074.00
620,596.17,2019.84,1072.67
622,596.40,2026.21,1095.33
624,596.63,2032.57,1078.33
626,596.85,2038.93,1079.33
628,597.08,2045.28,1096.33
630,597.31,2051.63,1092.67
632,597.53,2057.98,1089.67
634,597.76,2064.31,1106.33
636,597.99,2070.65,1100.00
638,598.21,2076.97,1091.00
640,598.44,2083.29,1101.33
642,598.66,2089.61,1095.00
644,598.89,2095.92,1112.67
646,599.12,2102.23,1094.00
648,599.34,2108.53,1100.33
650,599.57,2114.83,1106.67
652,599.80,2121.12,1105.00
654,600.02,2127.40,1103.00
656,600.25,2133.68,1115.00
658,600.47,2139.96,1116.67
660,600.70,2146.23,1095.33
662,600.93,2152.49,1089.00
664,601.15,2158.75,1082.33
666,601.38,2165.00,1108.67
668,601.60,2171.25,1113.67
670,601.83,2177.50,1090.33
672,602.06,2183.74,1074.67
674,602.28,2189.97,1086.33
676,602.51,2196.20,1090.33
678,602.74,2202.42,1097.33
680,602.96,2208.64,1109.33
682,603.19,2214.85,1091.67
684,603.41,2221.06,1101.33
686,603.64,2227.26,1091.00
688,603.86,2233.46,1093.67
690,604.09,2239.65,1086.00
692,604.32,2245.84,1098.67
694,604.54,2252.02,1083.67
696,604.77,2258.20,1093.00
698,604.99,2264.37,1114.00
700,605.22,2270.53,1107.67
702,605.45,2276.69,1095.67
704,605.67,2282.85,1086.67
706,605.90,2289.00,1089.67
708,606.12,2295.15,1099.67
710,606.35,2301.29,1094.33
712,606.57,2307.42,1094.00
714,606.80,2313.55,1118.00
716,607.03,2319.68,1105.67
718,607.25,2325.80,1103.67
720,607.48,2331.91,1115.67
722,607.70,2338.02,1115.00
724,607.93,2344.13,1101.33
726,608.15,2350.22,1111.33
728,608.38,2356.32,1095.33
730,608.60,2362.41,1120.67
732,608.83,2368.49,1114.67
734,609.05,2374.57,1128.67
736,609.28,2380.64,1144.67
738,609.51,2386.71,1108.33
740,609.73,2392.78,1135.33
742,609.96,2398.84,1161.33
744,610.18,2404.89,1173.33
746,610.41,2410.94,1184.67
748,610.63,2416.98,1214.33
750,610.86,2423.02,1264.33
752,611.08,2429.05,1255.33
754,611.31,2435.08,1247.33
756,611.53,2441.10,1203.67
758,611.76,2447.12,1167.00
760,611.98,2453.13,1170.33
762,612.21,2459.14,1145.00
764,612.43,2465.14,1110.33
766,612.66,2471.14,1156.00
768,612.88,2477.13,1119.00
770,613.11,2483.12,1112.33
772,613.33,2489.10,1120.33
774,613.56,2495.08,1120.00
776,613.78,2501.05,1153.00
778,614.01,2507.02,1110.00
780,614.23,2512.98,1123.33
782,614.46,2518.93,1132.33
784,614.68,2524.89,1113.33
786,614.91,2530.83,1099.33
788,615.13,2536.77,1113.33
790,615.36,2542.71,1113.00
792,615.58,2548.64,1118.33
794,615.81,2554.57,1112.67
796,616.03,2560.49,1094.67
798,616.25,2566.41,1111.00
800,616.48,2572.32,1104.33
802,616.70,2578.22,1110.67
804,616.93,2584.12,1108.67
806,617.15,2590.02,1105.33
808,617.38,2595.91,1098.00
810,617.60,2601.80,1081.00
812,617.83,2607.68,1075.67
814,618.05,2613.55,1099.33
816,618.27,2619.43,1110.00
818,618.50,2625.29,1125.00
820,618.72,2631.15,1091.67
822,618.95,2637.01,1074.67
824,619.17,2642.86,1092.00
826,619.40,2648.71,1119.67
828,619.62,2654.55,1125.67
830,619.84,2660.38,1094.00
832,620.07,2666.21,1095.67
834,620.29,2672.04,1102.00
836,620.52,2677.86,1105.67
838,620.74,2683.68,1111.33
840,620.96,2689.49,1117.67
842,621.19,2695.29,1111.33
844,621.41,2701.09,1123.00
846,621.64,2706.89,1090.67
848,621.86,2712.68,1091.00
850,622.08,2718.47,1099.33
852,622.31,2724.25,1103.33
854,622.53,2730.03,1095.00
856,622.76,2735.80,1103.33
858,622.98,2741.56,1092.67
860,623.20,2747.32,1107.00
862,623.43,2753.08,1092.00
864,623.65,2758.83,1088.67
866,623.87,2764.58,1100.00
868,624.10,2770.32,1105.00
870,624.32,2776.06,1095.67
872,624.54,2781.79,1122.67
874,624.77,2787.51,1126.00
876,624.99,2793.24,1112.33
878,625.21,2798.95,1106.00
880,625.44,2804.66,1095.33
882,625.66,2810.37,1088.67
884,625.88,2816.07,1109.00
886,626.11,2821.77,1107.00
888,626.33,2827.46,1092.67
890,626.55,2833.15,1095.33
892,626.78,2838.83,1096.33
894,627.00,2844.51,1104.33
896,627.22,2850.18,1111.00
898,627.45,2855.85,1110.33
900,627.67,2861.51,1094.33
902,627.89,2867.17,1092.33
904,628.12,2872.82,1125.67
906,628.34,2878.47,1113.67
908,628.56,2884.11,1099.00
910,628.78,2889.75,1125.33
912,629.01,2895.38,1129.67
914,629.23,2901.01,1131.33
916,629.45,2906.63,1104.00
918,629.68,2912.25,1104.33
920,629.90,2917.87,1108.67
922,630.12,2923.48,1124.33
924,630.34,2929.08,1123.67
926,630.57,2934.68,1104.67
928,630.79,2940.27,1126.00
930,631.01,2945.86,1126.00
932,631.23,2951.45,1123.00
934,631.46,2957.03,1144.33
936,631.68,2962.60,1143.00
938,631.90,2968.17,1150.67
940,632.12,2973.73,1138.00
942,632.34,2979.29,1165.33
944,632.57,2984.85,1204.67
946,632.79,2990.40,1268.33
948,633.01,2995.95,1408.33
950,633.23,3001.49,1770.33
952,633.46,3007.02,2400.67
954,633.68,3012.55,3030.00
956,633.90,3018.08,3044.00
958,634.12,3023.60,2321.67
960,634.34,3029.12,1719.33
962,634.56,3034.63,1465.67
964,634.79,3040.14,1335.33
966,635.01,3045.64,1256.67
968,635.23,3051.13,1234.00
970,635.45,3056.63,1201.67
972,635.67,3062.11,1215.33
974,635.90,3067.60,1237.00
976,636.12,3073.08,1185.67
978,636.34,3078.55,1148.67
980,636.56,3084.02,1132.33
982,636.78,3089.48,1130.33
984,637.00,3094.94,1117.00
986,637.22,3100.39,1139.00
988,637.45,3105.84,1132.33
990,637.67,3111.29,1135.33
992,637.89,3116.73,1115.33
994,638.11,3122.16,1127.67
996,638.33,3127.59,1108.00
998,638.55,3133.02,1099.67
1000,638.77,3138.44,1087.33
1002,638.99,3143.85,1086.00
1004,639.21,3149.26,1088.00
1006,639.44,3154.67,1113.33
1008,639.66,3160.07,1112.67
1010,639.88,3165.47,1111.33
1012,640.10,3170.86,1127.00
1014,640.32,3176.25,1115.00
1016,640.54,3181.63,1120.67
1018,640.76,3187.00,1125.00
1020,640.98,3192.38,1126.67
1022,641.20,3197.75,1087.33
1024,641.42,3203.11,1096.00
1026,641.64,3208.47,1102.33
1028,641.86,3213.82,1112.00
1030,642.08,3219.17,1087.67
1032,642.30,3224.51,1091.67
1034,642.52,3229.85,1098.00
1036,642.74,3235.19,1108.00
1038,642.97,3240.52,1101.00
1040,643.19,3245.84,1108.33
1042,643.41,3251.17,1092.00
1044,643.63,3256.48,1107.33
1046,643.85,3261.79,1106.00
1048,644.07,3267.10,1128.33
1050,644.29,3272.40,1091.67
1052,644.51,3277.70,1081.00
1054,644.73,3282.99,1096.00
1056,644.95,3288.28,1108.00
1058,645.17,3293.56,1102.67
1060,645.39,3298.84,1087.33
1062,645.61,3304.11,1078.00
1064,645.82,3309.38,1117.33
1066,646.04,3314.65,1087.33
1068,646.26,3319.91,1079.67
1070,646.48,3325.16,1095.33
1072,646.70,3330.41,1100.33
1074,646.92,3335.66,1153.00
1076,647.14,3340.90,1109.33
1078,647.36,3346.13,1094.33
1080,647.58,3351.37,1098.67
1082,647.80,3356.59,1090.67
1084,648.02,3361.82,1094.67
1086,648.24,3367.03,1088.67
1088,648.46,3372.25,1109.33
1090,648.68,3377.45,1083.00
1092,648.90,3382.66,1100.67
1094,649.11,3387.86,1097.33
1096,649.33,3393.05,1094.33
1098,649.55,3398.24,1108.67
1100,649.77,3403.43,1095.33
1102,649.99,3408.61,1071.67
1104,650.21,3413.78,1101.33
1106,650.43,3418.95,1090.67
1108,650.65,3424.12,1104.33
1110,650.86,3429.28,1086.67
1112,651.08,3434.44,1091.67
1114,651.30,3439.59,1088.67
1116,651.52,3444.74,1075.33
1118,651.74,3449.88,1064.67
1120,651.96,3455.02,1075.00
1122,652.18,3460.16,1083.67
1124,652.39,3465.29,1103.33
1126,652.61,3470.41,1089.67
1128,652.83,3475.53,1107.67
1130,653.05,3480.65,1103.67
1132,653.27,3485.76,1079.67
1134,653.48,3490.86,1083.33
1136,653.70,3495.97,1094.00
1138,653.92,3501.06,1109.33
1140,654.14,3506.16,1108.67
1142,654.36,3511.24,1106.00
1144,654.57,3516.33,1091.00
1146,654.79,3521.41,1098.33
1148,655.01,3526.48,1106.33
1150,655.23,3531.55,1102.33
1152,655.44,3536.62,1116.00
1154,655.66,3541.68,1098.00
1156,655.88,3546.73,1100.00
1158,656.10,3551.79,1089.33
1160,656.31,3556.83,1098.00
1162,656.53,3561.88,1096.67
1164,656.75,3566.91,1097.33
1166,656.96,3571.95,1095.00
1168,657.18,3576.98,1107.00
1170,657.40,3582.00,1106.67
1172,657.62,3587.02,1100.33
1174,657.83,3592.04,1105.00
1176,658.05,3597.05,1092.33
1178,658.27,3602.05,1082.67
1180,658.48,3607.06,1098.67
1182,658.70,3612.05,1096.33
1184,658.92,3617.05,1114.00
1186,659.13,3622.03,1103.67
1188,659.35,3627.02,1110.33
1190,659.57,3632.00,1090.33
1192,659.78,3636.97,1084.67
1194,660.00,3641.94,1096.67
1196,660.22,3646.91,1104.00
1198,660.43,3651.87,1124.67
1200,660.65,3656.82,1173.00
1202,660.87,3661.78,1163.33
1204,661.08,3666.72,1096.33
1206,661.30,3671.67,1106.00
1208,661.51,3676.61,1102.33
1210,661.73,3681.54,1098.00
1212,661.95,3686.47,1086.00
1214,662.16,3691.40,1077.33
1216,662.38,3696.32,1081.00
1218,662.59,3701.23,1085.33
1220,662.81,3706.14,1081.67
1222,663.02,3711.05,1098.00
1224,663.24,3715.95,1086.33
1226,663.46,3720.85,1113.67
1228,663.67,3725.75,1100.67
1230,663.89,3730.64,1086.00
1232,664.10,3735.52,1100.00
1234,664.32,3740.40,1101.00
1236,664.53,3745.28,1108.33
1238,664.75,3750.15,1087.67
1240,664.96,3755.02,1077.33
1242,665.18,3759.88,1084.00
1244,665.39,3764.74,1113.67
1246,665.61,3769.59,1081.00
1248,665.82,3774.44,1106.67
1250,666.04,3779.29,1118.00
1252,666.25,3784.13,1098.33
1254,666.47,3788.96,1097.33
1256,666.68,3793.79,1088.00
1258,666.90,3798.62,1092.67
1260,667.11,3803.45,1093.67
1262,667.33,3808.26,1100.67
1264,667.54,3813.08,1072.00
1266,667.75,3817.89,1082.67
1268,667.97,3822.69,1074.00
1270,668.18,3827.49,1083.67
1272,668.40,3832.29,1080.33
1274,668.61,3837.08,1083.33
1276,668.83,3841.87,1098.33
1278,669.04,3846.65,1092.33
1280,669.25,3851.43,1141.00
1282,669.47,3856.21,1148.00
1284,669.68,3860.98,1090.00
1286,669.89,3865.74,1081.67
1288,670.11,3870.50,1086.00
1290,670.32,3875.26,1094.00
1292,670.54,3880.01,1089.67
1294,670.75,3884.76,1073.33
1296,670.96,3889.51,1083.00
1298,671.18,3894.25,1089.33
1300,671.39,3898.98,1086.00
1302,671.60,3903.71,1068.33
1304,671.82,3908.44,1077.67
1306,672.03,3913.16,1101.67
1308,672.24,3917.88,1115.67
1310,672.46,3922.59,1102.00
1312,672.67,3927.30,1075.33
1314,672.88,3932.01,1098.00
1316,673.09,3936.71,1116.67
1318,673.31,3941.40,1092.00
1320,673.52,3946.09,1083.00
1322,673.73,3950.78,1083.00
1324,673.95,3955.47,1096.33
1326,674.16,3960.14,1087.00
1328,674.37,3964.82,1084.33
1330,674.58,3969.49,1119.67
1332,674.80,3974.15,1109.67
1334,675.01,3978.82,1093.00
1336,675.22,3983.47,1094.33
1338,675.43,3988.13,1095.00
1340,675.64,3992.77,1077.33
1342,675.86,3997.42,1076.67
1344,676.07,4002.06,1091.67
1346,676.28,4006.70,1090.33
1348,676.49,4011.33,1086.67
1350,676.70,4015.95,1102.00
1352,676.92,4020.58,1118.00
1354,677.13,4025.20,1103.33
1356,677.34,4029.81,1086.67
1358,677.55,4034.42,1082.67
1360,677.76,4039.03,1094.33
1362,677.97,4043.63,1081.33
1364,678.19,4048.22,1087.33
1366,678.40,4052.82,1081.33
1368,678.61,4057.41,1097.67
1370,678.82,4061.99,1080.67
1372,679.03,4066.57,1090.67
1374,679.24,4071.15,1086.00
1376,679.45,4075.72,1089.00
1378,679.66,4080.29,1086.33
1380,679.87,4084.85,1092.67
1382,680.08,4089.41,1101.33
1384,680.30,4093.96,1091.33
1386,680.51,4098.51,1083.67
1388,680.72,4103.06,1098.33
1390,680.93,4107.60,1079.67
1392,681.14,4112.14,1081.33
1394,681.35,4116.67,1095.67
1396,681.56,4121.20,1097.67
1398,681.77,4125.73,1083.00
1400,681.98,4130.25,1088.67
1402,682.19,4134.76,1105.00
1404,682.40,4139.28,1135.33
1406,682.61,4143.78,1143.00
1408,682.82,4148.29,1108.67
1410,683.03,4152.79,1098.67
1412,683.24,4157.28,1107.00
1414,683.45,4161.78,1116.33
1416,683.66,4166.26,1088.67
1418,683.87,4170.75,1086.33
1420,684.08,4175.22,1110.67
1422,684.29,4179.70,1101.67
1424,684.50,4184.17,1104.00
1426,684.71,4188.64,1094.33
1428,684.91,4193.10,1119.00
1430,685.12,4197.56,1110.00
1432,685.33,4202.01,1113.67
1434,685.54,4206.46,1096.00
1436,685.75,4210.90,1101.33
1438,685.96,4215.35,1095.67
1440,686.17,4219.78,1088.67
1442,686.38,4224.22,1105.67
1444,686.59,4228.64,1075.00
1446,686.79,4233.07,1091.67
1448,687.00,4237.49,1093.00
1450,687.21,4241.90,1090.00
1452,687.42,4246.32,1105.67
1454,687.63,4250.73,1117.33
1456,687.84,4255.13,1081.67
1458,688.05,4259.53,1090.33
1460,688.25,4263.92,1096.67
1462,688.46,4268.32,1104.33
1464,688.67,4272.70,1090.33
1466,688.88,4277.09,1087.67
1468,689.09,4281.47,1094.67
1470,689.29,4285.84,1080.33
1472,689.50,4290.21,1100.00
1474,689.71,4294.58,1090.33
1476,689.92,4298.94,1120.00
1478,690.12,4303.30,1122.00
1480,690.33,4307.65,1094.67
1482,690.54,4312.00,1088.67
1484,690.75,4316.35,1080.00
1486,690.95,4320.69,1066.00
1488,691.16,4325.03,1084.33
1490,691.37,4329.36,1070.33
1492,691.57,4333.69,1079.00
1494,691.78,4338.02,1093.67
1496,691.99,4342.34,1079.00
1498,692.19,4346.66,1070.67
1500,692.40,4350.97,1062.67
1502,692.61,4355.28,1078.67
1504,692.81,4359.59,1072.33
1506,693.02,4363.89,1074.67
1508,693.23,4368.18,1089.67
1510,693.43,4372.48,1094.67
1512,693.64,4376.77,1100.67
1514,693.85,4381.05,1102.00
1516,694.05,4385.33,1087.33
1518,694.26,4389.61,1068.33
1520,694.46,4393.88,1079.00
1522,694.67,4398.15,1069.67
1524,694.88,4402.41,1081.00
1526,695.08,4406.68,1098.67
1528,695.29,4410.93,1084.67
1530,695.49,4415.18,1086.00
1532,695.70,4419.43,1097.33
1534,695.90,4423.68,1077.67
1536,696.11,4427.92,1078.33
1538,696.32,4432.15,1085.33
1540,696.52,4436.39,1094.33
1542,696.73,4440.61,1079.33
1544,696.93,4444.84,1080.00
1546,697.14,4449.06,1091.33
1548,697.34,4453.28,1087.67
1550,697.55,4457.49,1126.00
1552,697.75,4461.70,1115.67
1554,697.96,4465.90,1103.67
1556,698.16,4470.10,1086.67
1558,698.36,4474.30,1087.00
1560,698.57,4478.49,1071.33
1562,698.77,4482.68,1067.00
1564,698.98,4486.86,1067.67
1566,699.18,4491.04,1078.33
1568,699.39,4495.22,1108.33
1570,699.59,4499.39,1114.00
1572,699.79,4503.56,1108.67
1574,700.00,4507.72,1091.00
1576,700.20,4511.88,1097.33
1578,700.41,4516.04,1071.67
1580,700.61,4520.19,1087.33
1582,700.81,4524.34,1091.33
1584,701.02,4528.49,1084.00
1586,701.22,4532.63,1081.00
1588,701.42,4536.76,1083.67
1590,701.63,4540.89,1080.33
1592,701.83,4545.02,1109.33
1594,702.03,4549.15,1109.67
1596,702.24,4553.27,1095.67
1598,702.44,4557.39,1073.33
1600,702.64,4561.50,1083.33
1602,702.85,4565.61,1098.67
1604,703.05,4569.71,1077.67
1606,703.25,4573.81,1091.00
1608,703.46,4577.91,1093.00
1610,703.66,4582.00,1096.67
1612,703.86,4586.09,1101.00
1614,704.06,4590.18,1092.00
1616,704.27,4594.26,1091.00
1618,704.47,4598.34,1091.67
1620,704.67,4602.41,1091.33
1622,704.87,4606.48,1108.33
1624,705.07,4610.55,1098.00
1626,705.28,4614.61,1117.00
1628,705.48,4618.67,1083.00
1630,705.68,4622.72,1085.00
1632,705.88,4626.77,1109.67
1634,706.08,4630.82,1126.00
1636,706.28,4634.86,1115.00
1638,706.49,4638.90,1113.33
1640,706.69,4642.93,1110.00
1642,706.89,4646.96,1131.00
1644,707.09,4650.99,1115.67
1646,707.29,4655.01,1134.00
1648,707.49,4659.03,1115.00
1650,707.69,4663.05,1098.00
1652,707.89,4667.06,1096.00
1654,708.10,4671.06,1094.33
1656,708.30,4675.07,1154.67
1658,708.50,4679.07,1161.00
1660,708.70,4683.06,1130.33
1662,708.90,4687.05,1141.67
1664,709.10,4691.04,1118.33
1666,709.30,4695.03,1146.33
1668,709.50,4699.01,1115.33
1670,709.70,4702.98,1091.67
1672,709.90,4706.96,1094.33
1674,710.10,4710.92,1095.67
1676,710.30,4714.89,1091.67
1678,710.50,4718.85,1093.33
1680,710.70,4722.81,1108.00
1682,710.90,4726.76,1121.67
1684,711.10,4730.71,1124.00
1686,711.30,4734.66,1109.67
1688,711.50,4738.60,1096.00
1690,711.70,4742.54,1122.00
1692,711.90,4746.47,1115.67
1694,712.10,4750.40,1098.67
1696,712.29,4754.33,1115.00
1698,712.49,4758.25,1084.00
1700,712.69,4762.17,1082.00
1702,712.89,4766.08,1079.00
1704,713.09,4770.00,1091.67
1706,713.29,4773.90,1111.33
1708,713.49,4777.81,1100.67
1710,713.69,4781.71,1093.67
1712,713.89,4785.60,1105.00
1714,714.08,4789.50,1082.33
1716,714.28,4793.38,1102.67
1718,714.48,4797.27,1098.00
1720,714.68,4801.15,1096.00
1722,714.88,4805.03,1100.33
1724,715.07,4808.90,1091.00
1726,715.27,4812.77,1084.00
1728,715.47,4816.64,1080.33
1730,715.67,4820.50,1090.67
1732,715.87,4824.36,1110.00
1734,716.06,4828.21,1084.67
1736,716.26,4832.06,1089.33
1738,716.46,4835.91,1076.33
1740,716.66,4839.75,1083.00
1742,716.85,4843.59,1084.00
1744,717.05,4847.43,1112.67
1746,717.25,4851.26,1122.33
1748,717.44,4855.09,1108.00
1750,717.64,4858.91,1109.33
1752,717.84,4862.73,1086.33
1754,718.03,4866.55,1091.67
1756,718.23,4870.36,1091.00
1758,718.43,4874.17,1095.67
1760,718.62,4877.98,1087.33
1762,718.82,4881.78,1118.33
1764,719.02,4885.58,1111.33
1766,719.21,4889.37,1091.33
1768,719.41,4893.17,1077.67
1770,719.61,4896.95,1082.67
1772,719.80,4900.74,1121.33
1774,720.00,4904.52,1115.67
1776,720.19,4908.29,1084.67
1778,720.39,4912.06,1091.00
1780,720.58,4915.83,1114.33
1782,720.78,4919.60,1134.00
1784,720.98,4923.36,1126.67
1786,721.17,4927.12,1082.67
1788,721.37,4930.87,1077.00
1790,721.56,4934.62,1105.67
1792,721.76,4938.37,1123.00
1794,721.95,4942.11,1090.67
1796,722.15,4945.85,1093.00
1798,722.34,4949.58,1106.67
1800,722.54,4953.32,1095.00
1802,722.73,4957.04,1099.00
1804,722.93,4960.77,1099.33
1806,723.12,4964.49,1075.67
1808,723.31,4968.21,1085.00
1810,723.51,4971.92,1070.67
1812,723.70,4975.63,1083.33
1814,723.90,4979.34,1092.33
1816,724.09,4983.04,1087.33
1818,724.28,4986.74,1080.33
1820,724.48,4990.43,1107.00
1822,724.67,4994.12,1104.33
1824,724.87,4997.81,1108.67
1826,725.06,5001.49,1095.00
1828,725.25,5005.17,1086.00
1830,725.45,5008.85,1081.00
1832,725.64,5012.52,1105.00
1834,725.83,5016.19,1103.33
1836,726.03,5019.86,1097.33
1838,726.22,5023.52,1108.67
1840,726.41,5027.18,1087.67
1842,726.61,5030.84,1107.33
1844,726.80,5034.49,1086.67
1846,726.99,5038.14,1079.00
1848,727.18,5041.78,1095.00
1850,727.38,5045.42,1085.67
1852,727.57,5049.06,1087.67
1854,727.76,5052.69,1088.67
1856,727.95,5056.32,1089.33
1858,728.15,5059.95,1090.67
1860,728.34,5063.57,1089.33
1862,728.53,5067.19,1090.00
1864,728.72,5070.80,1114.67
1866,728.91,5074.41,1093.00
1868,729.11,5078.02,1121.67
1870,729.30,5081.63,1131.00
1872,729.49,5085.23,1080.33
1874,729.68,5088.82,1095.00
1876,729.87,5092.42,1084.33
1878,730.06,5096.01,1092.33
1880,730.25,5099.59,1106.33
1882,730.45,5103.18,1112.33
1884,730.64,5106.76,1116.00
1886,730.83,5110.33,1115.67
1888,731.02,5113.90,1092.33
1890,731.21,5117.47,1099.67
1892,731.40,5121.04,1124.00
1894,731.59,5124.60,1106.00
1896,731.78,5128.16,1079.33
1898,731.97,5131.71,1080.33
1900,732.16,5135.26,1093.67
1902,732.35,5138.81,1110.33
1904,732.54,5142.35,1112.67
1906,732.73,5145.89,1106.33
1908,732.92,5149.43,1093.67
1910,733.11,5152.96,1096.33
1912,733.30,5156.49,1104.00
1914,733.49,5160.02,1103.67
1916,733.68,5163.54,1107.33
1918,733.87,5167.06,1096.00
1920,734.06,5170.58,1112.33
1922,734.25,5174.09,1089.00
1924,734.44,5177.60,1082.00
1926,734.63,5181.10,1098.33
1928,734.82,5184.60,1159.00
1930,735.00,5188.10,1142.33
1932,735.19,5191.59,1114.00
1934,735.38,5195.09,1091.00
1936,735.57,5198.57,1088.33
1938,735.76,5202.06,1092.33
1940,735.95,5205.54,1086.00
1942,736.14,5209.01,1103.67
1944,736.32,5212.49,1110.00
1946,736.51,5215.96,1117.67
1948,736.70,5219.42,1091.33
1950,736.89,5222.89,1131.67
1952,737.08,5226.34,1117.00
1954,737.26,5229.80,1111.33
1956,737.45,5233.25,1116.00
1958,737.64,5236.70,1131.00
1960,737.83,5240.15,1111.67
1962,738.01,5243.59,1117.33
1964,738.20,5247.03,1125.00
1966,738.39,5250.46,1115.00
1968,738.58,5253.89,1109.00
1970,738.76,5257.32,1101.67
1972,738.95,5260.75,1109.00
1974,739.14,5264.17,1122.00
1976,739.32,5267.58,1115.67
1978,739.51,5271.00,1114.00
1980,739.70,5274.41,1125.00
1982,739.88,5277.82,1110.33
1984,740.07,5281.22,1105.67
1986,740.26,5284.62,1091.00
1988,740.44,5288.02,1107.33
1990,740.63,5291.41,1115.00
1992,740.81,5294.80,1110.67
1994,741.00,5298.19,1121.67
1996,741.19,5301.57,1119.00
1998,741.37,5304.95,1122.67
2000,741.56,5308.32,1105.33
2002,741.74,5311.70,1112.67
2004,741.93,5315.07,1131.00
2006,742.11,5318.43,1118.33
2008,742.30,5321.79,1114.00
2010,742.48,5325.15,1126.00
2012,742.67,5328.51,1103.00
2014,742.85,5331.86,1094.67
2016,743.04,5335.21,1095.00
2018,743.22,5338.56,1098.00
2020,743.41,5341.90,1093.67
2022,743.59,5345.24,1103.67
2024,743.78,5348.57,1114.00
2026,743.96,5351.90,1108.33
2028,744.15,5355.23,1093.00
2030,744.33,5358.56,1073.33
2032,744.51,5361.88,1088.67
2034,744.70,5365.20,1089.33
2036,744.88,5368.51,1078.33
2038,745.07,5371.82,1066.33
2040,745.25,5375.13,1064.33
2042,745.43,5378.43,1061.67
2044,745.62,5381.74,1049.33
2046,745.80,5385.03,1063.00